Folder: acoustic-wave-reconstuction/XRD calculation

Note: README.md
# acoustic-wave-reconstuction
Matlab optimisation algorithm to reconstruct acoustic waves from time-resolved X-Ray diffraction data

Use this algorithm as followed:

File: RC_Ti_GaAs111sm2.txt
-1.31386,0.972193
-1.30333,1.40282
-1.2928,1.08002
-1.28227,0.952111
-1.27174,1.29914
-1.26121,1.19397
-1.25068,0.908786
-1.24014,0.731698
-1.229613,0.60126
-1.21908,0.825129
-1.20855,0.814614
-1.19802,0.876102
-1.18749,0.622643
-1.176956,0.918369
-1.16642,1.10754
-1.15589,0.807672
-1.14536,0.747445
-1.13483,1.28668
-1.124299,1.28293
-1.11377,1.19146
-1.10324,0.671365
-1.0927,0.999127
-1.08217,0.932061
-1.071642,0.818267
-1.06111,0.78388
-1.05058,0.923334
-1.04005,0.823461
-1.02952,0.708934
-1.018985,0.898572
-1.00845,0.774239
-0.997922,0.954097
-0.987391,1.2138
-0.976859,1.04178
-0.966328,1.2891
-0.955797,1.00457
-0.945265,1.10696
-0.934734,0.795553
-0.924202,1.06557
-0.913671,1.07397
-0.90314,0.973307
-0.892608,0.969055
-0.882077,0.827152
-0.871545,1.28207
-0.861014,0.811496
-0.850483,0.966247
-0.839951,1.38303
-0.82942,0.83936
-0.818888,1.05089
-0.808357,1.4203
-0.797826,1.31292
-0.787294,1.56238
-0.776763,1.2924
-0.766231,1.70477
-0.7557,1.72462
-0.745169,1.51937
-0.734637,1.82947
-0.724106,2.33013
-0.713574,1.62255
-0.703043,1.8806
-0.692512,2.08283
-0.68198,1.63648
-0.671449,1.75591
-0.660917,1.6654
-0.650386,1.71631
-0.639855,1.90132
-0.629323,1.66346
-0.618792,2.18402
-0.60826,1.89551
-0.597729,1.83562
-0.587198,1.6961
-0.576666,3.10489
-0.566135,2.15394
-0.555603,2.53678
-0.545072,2.84228
-0.534541,2.42955
-0.524009,2.57644
-0.513478,3.08445
-0.502946,2.67465
-0.492415,3.70556
-0.481884,3.02748
-0.471352,3.47736
-0.460821,3.20255
-0.450289,3.31276
-0.439758,4.31369
-0.429227,3.85842
-0.418695,5.08202
-0.408164,4.4198
-0.397632,4.95372
-0.387101,5.08792
-0.37657,4.76454
-0.366038,5.24531
-0.355507,5.63253
-0.344975,5.46956
-0.334444,6.29402
-0.323913,7.0089
-0.313381,6.39578
-0.30285,7.37318
-0.292318,7.77736
-0.281787,8.50926
-0.271256,8.84656
-0.260724,9.10228
-0.250193,10.9257
-0.239661,11.1935
-0.22913,12.6884
-0.218599,13.9508
-0.208067,15.1546
-0.197536,16.831
-0.187004,19.9333
-0.176473,21.3819
-0.165942,24.1077
-0.15541,27.3965
-0.144879,31.4277
-0.134347,37.3363
-0.123816,42.2148
-0.113285,49.7235
-0.102753,60.5861
-0.0922218,80.0905
-0.0816904,96.5194
-0.071159,130.428
-0.0606276,186.109
-0.0500962,281.496
-0.0395648,501.199
-0.0290334,1262.14
-0.018502,4806.4
-0.007970592,19534.9
0.002560808,25747.8
0.0130922,12708.5
0.0236236,3570.75
0.034155,1182.13
0.0446864,542.073
0.0552178,297.217
0.0657492,196.582
0.0762806,140.836
0.086812,103.734
0.0973434,79.975
0.107875,63.9006
0.118406,51.814
0.128938,44.264
0.139469,38.6441
0.15,34.3252
0.160532,29.4933
0.171063,25.99917
0.181595,22.0253
0.192126,19.7133
0.202657,17.7024
0.213189,16.2252
0.22372,15.6611
0.234252,14.4997
0.244783,11.8723
0.255314,10.6953
0.265846,10.6795
0.276377,9.80401
0.286909,9.25627
0.29744,8.42464
0.307971,7.79778
0.318503,7.29865
0.329034,7.49088
0.339566,6.05509
0.350097,6.60126
0.360628,6.28477
0.37116,5.44911
0.381691,5.54025
0.392223,4.88868
0.402754,4.96182
0.413285,4.82441
0.423817,4.21332
0.434348,4.6971
0.44488,4.40294
0.455411,5.01006
0.465942,3.76968
0.476474,3.88769
0.487005,3.17837
0.497537,3.22097
0.508068,3.21728
0.518599,3.2638
0.529131,2.77089
0.539662,2.12567
0.550194,2.31471
0.560725,2.03795
0.571256,2.15722
0.581788,2.21953
0.592319,1.98823
0.602851,2.00536
0.613382,1.83803
0.623913,1.86275
0.634445,1.74123
0.644976,2.40245
0.655508,1.85748
0.666039,1.71035
0.67657,1.96909
0.687102,1.36409
0.697633,0.90485
0.708165,1.18359
0.718696,0.898622
0.729227,0.597468
0.739759,0.990541
0.75029,0.898578
0.760822,1.13718
0.771353,0.607197
0.781884,1.6102
0.792416,0.958683
0.802947,1.14108
0.813479,0.861677
0.82401,0.978418
0.834541,1.70662
0.845073,1.05301
0.855604,0.643396
0.866136,1.02762
0.876667,0.830269
0.887198,0.847509
0.89773,0.834708
0.908261,0.771655
0.918793,0.748738
0.929324,1.87966
0.939855,1.03299
0.950387,1.11067
0.960918,0.945374
0.97145,0.917238
0.981981,0.81614
0.992512,1.17573
1.00304,1.61188
1.01358,0.742132
1.02411,0.623592
1.034638,1.10202
1.04517,0.640303
1.0557,1.15
1.06623,0.900906
1.07676,1.30231
1.087295,0.861649
1.09783,0.964327
1.10836,0.726715
1.11889,1.04126
1.12942,1.25439
1.139952,1.21894
1.15048,0.627412
1.16101,0.701975
1.17155,0.756243
1.18208,0.866601
1.192609,0.58077
1.20314,0.734479
1.21367,0.994644
1.2242,0.884795
1.23473,0.864264
1.245266,0.912171
1.2558,0.930679
1.26633,0.97535
1.27686,0.677231
1.28739,1.05927
1.297923,1.38823
1.30845,1.09771
1.31899,0.953405